File: Assignment_1/A1_part2/guesses_test.txt
!!!!!!!!!!!!!!!!!!!!
!!!234what
!!11loverbea
!!96321a
!!mrsj!!
!!reality
!$#lori2008
!&quot;blu!&quot;
!(20theta851@%
!1085110851!
!1976jared!
!1YodaCloe2@
!1qazxsw2
!1wizards
!4KaileE7!
!571mojo
!@#$%
!@#$%^&amp;*as12
!@#bob123marley
!@je1234sus!!
!@qwas
!Darlyn89
!ExtrA$
!QAZ2wsx
!QAZxsw2
!Sw0vtRbBbF
!belly!
!c3hammer
!charney33
!cunt4$
!easy2345
!eileen!
!h3llf1r3
!hack
!iloveing
!iz@rd
!lexmark16
!matchbox22
!mike!
!moneyMAKer!
!mt_7genius
!mystories**
!n^IsI813
!nimloth
!promoce2006
!q@w3e4r
!qaz1QAZ
!sarock1!
!suGarp0ps
!tm3boyz!
!track720
!wdxas01!
!westpalm
!wiki2!
!write4monet
!zztop869!
#!9746121
#!eds19421
#!pmhffx61
##flash123
#$%@sion124
#$sage
#00017
#09265
#1-firstborn
#12open
#1Caramel
#1ED7325
#1Stunner
#1abba
#1angel34
#1burdine
#1charles
#1cheater
#1daddy
#1dream
#1eminem
#1g8tcher
#1godschild
#1homie
#1housekeeper
#1m0rron
#1manz
#1meech
#1model
#1mommy
#1mountain
#1nurse
#1pimp
#1playboy
#1star
#1system
#1writer
#317HDRwk!
#4150$
#42tlemonpie
#85@*ox#end#
#8balz88
#9#
#FEMNIK1
#Green3Grass#
#^$$@*&amp;#*
#akd@54*PBR
#austin1#
#herass4me
#jen05deb40
#linda$
#map22552
#mydreams#
#passer745
#silsilay#
#tubesteak
#twildad$1178#
#zxopas13
$$$$
$$$making
$$$money
$$MONEY$$315
$$ballout
$$beginnings
$$faithful12
$$gannubhia$$
$$quasar53
$085yes$
$10cranes$
$1stunna
$2taylor
$44kids
$4badgirl
$=d3ath
$@abadasa
$@nd10t
$@rk@r
$ACAssociate
$Cleopatra20
$Hackle5
$Hoznail
$IMTHATBYTCH
$Mealcook49
$Mr123?
$authoramova13
$axlotl$
$cando2008
$che&amp;me
$coreS1BgM0rsl4me
$cornor$
$daniel$
$donnovello_55
$drunkencoyote45
$e1*5w^%i_q4
$elena
$emperorj$
$es%rd6tf
$flowers1
$goddess00
$gs1905
$hae3470
$hizlep;
$holygrail$
$ilvertree
$jan0277
$m0key123
$m4869
$mini$
$mother$
$mouser1975
$n0wball
$oubhagya
$pacegirl1
$pericles05
$prvts
$r87*CQG&gt;36rkM
$rixel$
$sahebsona157$
$scrib67$
$tart4word
$tileman
$u1c1dalsw3d3
$ulabh$$
$uper$avings
$uperman
$yarg
$ynop5i5
%!1v3rB0w
%&amp;Q0g1vM
%25password
%3@wny75
%aN6t2LE
%m33vz
&#039;vijaykavi88&#039;
&amp;&amp;#233;&quot;&#039;
&amp;^9)33*225t
&amp;only14n8n
&amp;weetkad1
&amp;wild06cat
&lt;3=lonelyhunter
&lt;3my2boyz
&lt;3nevaends
&lt;INDIRECTrevival&gt;
&lt;gale&gt;50yrs
&lt;gbvbob950
&lt;than0
&quot;ilovedesi4&#039;
&quot;kenn&quot;
&quot;oldschool&quot;
(8886810sparkle
(H)ardcore99
(h3lly07
(my)account
(nnas)
(poikal)
(smothers)
(x@nd3r)
(ziman03**)
)okm0okm
******
*******
**apex**
**asd**
**bluestar**
**isurfhb**
**mite786
**ruff**
**smle
**z69**
*03204415643*
*07wookie
*1111111111
*1123581321*
*121981*
*2006_AC
*4CeCe914t$
*9Gou9ki9*
*Ethan913*
*ExcelsiorE
*F5a$Dc#_Lk8
*Joy4Me!!*
*MaryamShahrukh*
*MissPretty*
*Songbird03!
*Yulia*V
*acsh01bb
*biko24334373
*catz*
*cbattle*
*dakota05
*dakota5
*dunefrank
*jehovahg7
*kakashi011
*kclmnop
*lici16*
*liebling*
*loralei*
*lovehope
*n3Drah&amp;42E5
*nanski10
*newcareer08
*o1curmt!
*se05le
*shalle*
*shine1984
*slk4*1ads*
*smokey0919*
*solarstone6
*sophia*
*topgun35*
*u7y6t5r4
*umbrella36
*uz/86oa
*varg13
*w*8*4*6
*willow!
*write*
+266492rtba
+dentistra+
+yedlur1938
,.1234jrkk
,donovan/
,ghx,ln,ughx
,ilrdj
,u#0d5svpv
--nihongo41--
-1duckiz2sad
-RIATIahmed_
-SFluvsGD_
-football-
-moppie01-
-nikkilee
-plmnb
.
......
...rome
./AC!!!
.254163#
.Gladidag!
.adgjmptw
.admjgptw
.bulls
.daniela
.haines56
.haylee28
.joelky.
.karlo.
.m.m.m.m
.moses112
.public
/&#039;][;.
/9801594
/akira1\
/inco/
/onthier
0
0%wife2008
0-2x@L
0.123457/*-+
00)Oneida
0000
00000
000000
0000000
00000000
00000000a
00000001
00000009
0000000p
0000007
0000007j
000000S
000000wy
000001
000007
00000726
0000099999
00001111v
000015
000017
000019
00001966
00001997
000023
00003066
000032
00003955
000043
000046
000054
00007519
00009993
0000dogg
0000kibet
00010001000
000111
000120
000123456
000141228
000143bb
000173
000187
0001kv37m
000206
00026
000275
000282
000300
000315
000333
00033300
000335
00034931
000408a
000416
000420
000428
0004987
000530
000550
000555
000619
0007
000756
000777
00080008
000910
000933
000999
000imonfire
000naren000
000ptp
000v51
001001
0010195105
001032077
00110082
001111
001133
00114477885522
001147
001155
001177
0012
001212
00123
0012345
00128586
0013
0013476840663
001401
0014415319
001462
001492
001502
00151543
001577
0016
00162badguy!!
001672
001717
00178740
001907
001911
00193400sunset22
00196814
001974
001976
001981
001987
001crazyluv
001spy1
001zv3x5
00200549
00203200
0020437
002048
002115
002129
002264
0022tr
00230056m
00230230
002413700
002444
002463ljt
002490
0025234
00258
002586
002594
0026
002655
00272132
003018
003100
003106
003164
0032510103909080
0032matrix
003366
0034afff
0035JJ
0036
00400040
004103
00411411
004159
00441166
004439
004483
0046
004676
00469aze
004762
00490672d
004941
004tick4
0051374
0051688
0052126802
00530225
005344
0055121
005525
00587508
005ppp89
006007008009
006025
006092
0060pjm
006162
006165
006197
0061mako
006276
0063
006330nch
006454
0069audi
006agent
007
007&amp;008
007007
007007007
007008
0070987
007118
00713224
007288
0073735963
007411
007431
0074ever
007520
007579
007666
0077
007700
007794
007Coolbean
007Zebra
007conquest
007hpfighterjets
007jes
007lrfvl
007lucy
007max
007ndocadc
007pnr
007rabbit
007roc007
007woac
007zulufoxlema
008057
00831aSs
00870087
00870211
00870700
008797
00888072
0089158
008959
008977
008spy
008tango
0090876a
0091053
009218
009218phtar
009276x2
009291
009339
00960096
009852
00987
00990099
00991155
009934525612
009988
009991
00berc00l
00blew00
00busted
00cbrhawk
00chna11
00cmb97
00dance
00dietcoke
00dogss
00gb666777
00jemby
00kender
00luvsux
00msdo4185
00pemo
00run0
00silvato
00singerz
00smith
00sv00sv
00unix00
00zero
01001042
010098640
010100
0101005535
010101
010104
01010428
01010f
0101122306
01011962
01011980
01011988
010142
010188
010199ms
0101nemesis
01020102
010203
0102030405
01021970pancho
01022001
010273
010274
0102tif
010306
01031982
010338
010350
010382
010388
010390dr
0103939484
010398
010405
01041961
01041968
01041988
010451
010461
010473
010480
010501
01051984
01052004
0105675062
0105725901
010585
0105ridebike
010600
010605
0106221106
010658
0106742
010677
010680
010689
010689j
0106997581
0107
010701
01071983
0107625
010763
010778
01078420
0107882388
010797
010798
01080507
01080611
010808baby
01081980
01081985
0108344788
0108478
01086352
010873
010874
010879
0108861
0108love
01091978
01092002
01092005
0109770Up
010979
010982
010989
01100110
0110023
01101944
01101962
01101988
011076
0110894
0110dada
011103
01111603
01111954
01112
011151
011181
011182
011190
01121981
01121982
01122001
011235813
011279eyad
011279jfpg
011284
011289
011298
01131926
01131996
011356
011358
011369
011372
01138111
011390
011398
011401
011406920
01141110
011414
01144141BEA5001
011456
011476
011477
01148012
01149dave
01151974
01151978
01151983
01152002
011569
011594
01159638774
0115ct
0116
011600
011606
011607
011682
01169
011749st
01176519
011766
011789
011797
0117melh
01182002
01182005
011834okna
011872
011879
011891
011902
01191951
01191952
01191979
01191985
01191990
011954
011955
011978
011981
0120
012000
012001
012012374
01201975
012046
012060
012063
012075ct
012078
012086
012092
0121
012104
01212623009
012134
0121355685
012162
012178
012179
012180
012201
012210
01221968
012270
012275
012276
012299jc
012300cm
0123095649
01234186
012345
0123456
01234567
0123456789
0123456789ke
012356
012361
012364a
0123670747
012368
012381
012382
01238200
0123spd
0124130583
012452
01247778
0124jax
0125087653
012515
01251984
012524
012564
01256847
012574
012580
012581
012584
01261978
01262002
012655
012684
012692
012707rn
0127104270
01271983
01272602
012745
012754bd
012756
012779
01280128
01281974
012825
012845
01285878
012864
012875
012885
012888
012895
012902
0129519599
0129520199
012980
012983
012986
012989zoe
012golf
012sam
013019
013084
013091
013099
013106
013131
013147
0131649663
013188
013194
013198
0131KUK
0135496260
013579cf
0136233
0136714255
0137155879
013dubace
01420142
014221
0143
01430143
0146smith
01470147
0147147
0147258
01484
014916
015222
0152224
0152415820
0152436385
01524582
015268
015419
015550
015718
0157669
0160773
0165102862
016607
01670168533
0168234872
016898
017101
0171844h
01719058659
0171909499
017203
0173
01743245018
017503
017763968
0178
01793852453
017meat
018014
01819069088
0182
0182565
018332919
018601489
0187
0187545998
01880188
01880513
019060
01913983430
01930105
0199203958
01amryza
01april83
01bcs19
01betterwayc
01blue
01cairo01
01chef
01cinstorm
01counselor
01cruiser
01f6c
01faith
01g23971
01galant
01georged
01ginger01
01harley
01jun93
01peachez
01rakabouba
01redsat
01smith65
01song
01tariq
01travmar01
01von33
01wallace
01walm
01whitty
02000000
020101
02010201
020108
02011984
020140tm
020164
02020202
0202022
020203
02021966
020220
020225
020261
020270
020272
020301
020303
020304
020370a
020373
020377
0203783
020379
02038472
0203tk
020405
020419131
020455
020481
020487
0204908
020491
020493acc
0204jzz
0205
020500
020501
02050205
020505
02051960
020570
020571
020579
020582
02058428
020597
0206
02061983
02061987
02062000
020663
020674
020677
0206979
0207
020767
020786c
020789
0207ma
020803360
02081972
02081985
020821LIBRAcupid
020840
020851
020868
020873
020876
020884gatdq2
02091216
02091985
020951
020967
020980
020983
020985
02100210
02101977
021052
021063
021067
021076
021096
021099
021100
02111975
02111985
021172
021175
021197
02120219c1
02120725
02121964
02121968
021270jr
021288
021300
021372
021374ss
021383
021398
02141988
021421
021440
021458
021463
021475
021476
021481
021484
021488
021491
021492
021494
021498
021498jax
021499
021504
021512
021565
021583
02158320
021585
0215952
021598
021599
0215Carla
021608DarcyJ
021620
021642
021660795
021677
021681
021684
021688
021701
021705
021737iwu
021742
021762
021772a
021787
021790
0217trwash
0218
021807
021857
021869
021872
0218921
021901
021906
02191946
02191969
021962
021987
021light
0220045
02201974
02201976
022058022058
022069
022084
022102
0221020020
022103
022112
0221447155
022185
022205
02221975
02221980
02221993
022268
022279
022288
022294
0222976064
022298
0223
022300
022301
02231979
022370dm
022382
022399
0223sj
0224
02241964
02242007
022477
022478
022483
022495
022500
022505
022506loveu
022511
02251972
02252003
02252706
022597
022605
02261999
022662
022667we
022669
022682
022699
0226mc
0227
02270
02271984
022751
022783
022784
022792
0228
02281989
02285lpc
022864
022868
022880
022883
022890
022897
02291980
02295656
023200ac
0233097
023626
023704
023755a
023777
02406239
02411220
02425840520209522806
024367878
0243716032
024378443
0243968622ir
024600mb
024773
0249479229
025039
025150
0252
02521760
025331
0253789
02541992
025450
02556915
025987
0259lin
02602055
026622
0267674
0274245357
0274276727
02771w
028007
0285101123
02900420
02901a0239
029087
0294long
029948
0299554h
02I14R03
02Savvy02Chl
02accord
02beme
02bholya
02fullyalive
02honda
02jun75
02lincoln
02nov1965
02people
02spanky02
02west
03/mar/87
030102
03011987
0301224
030159
030178
030182
030189
03021960
03021969
030260
030270
030287
030293
030303
030304
03031959
03031975
03031986
03031988
03031998
030362
030372
030373
030380
030386
03040407
030411
03041960
030452
030477
030486
030487z
030491
030495
0304986
03050811
03051808
03051974
03051990
030530
03055106
030561
030589
0306
030600
030603
03063210
030644
030657
030679
030681
03071112yc
030712
03071972
03071989
03071990
030760bg
030781
030809
03081991
030853
030855
030857ro
030862
030866
030868
030878
030953
030963
030980
030984
03100342
03101602pwk
03101993
031043
031059
031076
031103
03110311
03111969
03111982
031177
031182
031192
0312
03121985
031221
031222
031257
031260
031287
031289
031294
031303
03131945
03131988
031362
031380
031383
031393
0314
031403
0314536
031467
031479
031480
031482
031485
031486
031487
031489
031498
03150315
031511
03152001
031553
031559
031562
031571
031576
031586
031591x
031592
0316
0316515
031688
0316db
0316mom
0316six
0317
031701
031701bk
031712
03171976
03171978
031780
031781
0317kl
031800
031876
031885
03189500
031900
03192004
031962
031967
031979
031984
031987amyb05
031988
031999
031zafir1234
032000
032003
03200320
03201978
03201983
03202007
032058
032064
032084
032085
0321
032101
032122nap
03214448427
032156
03216781306
032179
032188
0322
032202
032203
032207
03221975
03221976
03221981
03221988
03224603610
032249
0322512fv
032274
032279
032280
03228231462
032287
0323
03231990
032357
032369
03237060085
032383
032385
032391
03241972
03242005ql
032447
032475
032484
0324en
032505
03251975
03251985
03252004
032575
032581
0325nu
032603
0326272
032660
032679
032685
032687
032696
032699
032703
0327608289
032781
032797
0327jbay
032850
032866
032874
032892
032903
03290329
03291966
03291981
03291982
03294056
032955
032978
032982
032984
032985
032996
0329mom
033001
03300330
03301993
03302004
033033
03305679
033067
033077
033079
03311964
03311991
033188
033200kd
0335krqe
0340
034107
0343103431
03454751020
03459301354
03473900
035026
035055
0353491sara
03556ds
0356277124
0357911
036016
0362587482
0365
03651a0235
0367
0369
036912
0369679
037165
037584260k
037692
037742
03797209
038465
0387
0388th
038996
03908644
0393
0395A83
0397714
03997223
03aiverson
03boxster
03cobra
03dating
03dj1948
03evol
03ma03
03meenug
03ohara
03orphie
03peanut
03redgirl
03sassie
03sifting69
03soldiers
03zncrzx
04011928
04011978
040164
040193
040197
040202
040206
04021971
040255
04026060
040271
040279
040291
040295
04029500
0402Lena
0402dls75
0402hb
040308
04031965
04031981B
04031994
040323
040351
040371
040377
0403923304039233
0403ay
040406
04040925
04041958
04041992
04041996
04042002
040450
040463
040472
040481
040503
040506
04051980
040570
040572ac
040573
040580
040599
040600
040603
040607
040608
04061973
04061979
04061982
040679
040701
040702
040720
040770
040800
040802
040803
040804
04081970
04081975
04081985
0408257
040858jrp
040862
040868
040884
040888
040897
040899
040902
04091988
0409219640
040966
040990
040ygy
041007
0410081
04102006
041040
041063
041076marinishte
041078
041097
041101
04111963a
041156
041174
041179
041182
041191
04120412
04121982
04121984
0412240473
0412251618
041273
041291cd
0412a0412a
0413
04131985
041338
041364
041384
0413myle
04151933
04151958ray
04152006
041561
041572
041577
041598a
0416
041603
041605love
0416641972
041677
041680
041688
04171980
041755
041799
041900aa
04191969
041956ksh
041983
041991
041997g
0419dnt
0419octo
0420
042000
042002
04201965
042058
042064
042069
042088
042099
0420hello
042101
042105
04211696
042163
042164s
042169
042173
042183
042193
042202
042204
04221984
042240
042277
042280
042287
04229123
042295
0422dlc
04230423
04231985
042332514
042382
042383
042403
042405apr
04241981
042442
042456
042479
042480t
042485
042488
042503
042506
042506db
04252228
042571
042574
042588
042589
042590
042599
0425qe
042604
042606
04261994
04261996
04262008
0426wind
04271985
042745
042787
042788m
042801
04281955
042881
042892
042894
042896
042898
042899
042906
04292006ass
042974
042983
042984
042988
043087
043088
043099
0430patricia
0433935917
0434118
044788718
0447knight
045400
04540454
045804
046142
046408
046911
047064
0472228447
0472bob
047458m
04752354992
047581760
04760476
047740
0479IGINLA
048048
04832790550
04872478
04872552255
0489alice11l
049af7
04ami05tmm
04bm*z03
04freedom
04gt69
0500123329
0501
050101
050104
05012008
0501202
050146
050169
050180
050182*cpz*
050187
0501944636
050199
050201
05020502
0502070
0502114060
050263
050264
050270
0502794086
050282
050286
050289
050302
050306
050356
050388
0504
050402
050403
050405
05041979
050425548
050483
050489
050490korn
050492
050496
050496an
050505
050510
05051945
05051953
05051972
05051978
05052006a
05054366
050551
050565
050586
050587
0505sassy
050602anniv
05061995
0506413076
050660
050663
050675
05071231nzsu
050783
050797
0508
0508088329
05081976
05081995
050871
050881
050885
050891
050903
050907
050912ed
05092003
050947
050950
050976
050992
051000
051002
051011
05101988
051027
05111987
05111988
05111989nsch
051154
051181020203
051203
051207
051280
051300
05130513
05131980
05135403
051377
051379
051380
051382
051388
051393
051395
0513cj
0513e=mc2
051404rl
051405
05141985
05142006
051452
051496
051499
0514mdf
051502id
051504
051548
051568
051571158cres
051577
051597
051606
051677
051680
051698
05171982
05171984
051771
051780
051797
05181965
051850
051856
051871lt
051876
051878
051885
051899
051899tcc
0518chan
0519
05191974ts
051947kj
051957rlm
051961
051991
051993
0519byc
0520
052000
052005
052013
05201998
052061
052105
05211969
05211987
052157evc
052169
052181
052184
052185
0521barney
052204
05221987
05221999
052263
052264
05228six
052293
052301
052304
052306
052362
052378
052385
052391an
052397
052398030
0524
052401
052403
052407
05241994
052425
052448ed
052494
052502
052503
05251958
05251978
05253
052573
052590als
05261985
052652
052674
052677
052703cnl
05271974
052776
052791
052800
052803
052804
052804190612
052805
05281978x
05281988
05281a0466
052824
052856
052859
052878
0528857343
052891
05290529
05291969
05291977
052969
052973
052982
052993
052993sk
05300114
053003
05300924
0530146
05301998
053048
053085
053086
053094
053098
0531
053109
05311956
053124as
053165602ksj
053170
053176
053182
053183
053191
0532372
05325264
05356894
05359447592
053701
05370537
0540116
05468070ivo
054687536brian
05512240394
05528011
05530309
0554635816
0555
055582
055709705
0557dancer
05592692jor
0562317262
05658661
056677
0567dellab
0569abcd
05745015
057908
0581
058411
0585652j
0586
0586952
0594425
0599
05ahs5979
05ashyra
05baby
05beaver&amp;rooster
05cal65
05davrya
05kkenbo
05nero05
05pgm23
05pickup
05police
05sek6313
05sheldawn
05sm1908
05toyota
05uec024
0600318
06011959
06011973
06011978
06011983
060126
060153
060156
060180
060192
0602
060200
06020094
06021972
060287
060307a
06031266
06031981
06032002
06037261s
060375
060384
060389
060400
060401
060405
060408
0604140227
06041977
06041994
060469
060483
0604923
0605
060506
06051974
06052007
060550
060602
060606
060615
06061977
06061991
06062001
060678
060684
060685
060687
060701pw
060703
06070808
06070809
060774
060779941
060781
060788
06081974
06082655
060873
060900
060905
060910
06091989
060981
060992m
061006
06101968
06101981
06102000
061053
061058
061077
061083
061086
061089
061090
061099a
0610kevin
061100
061102
061125
0611601
061161
061166
061181
061190
0611cw
061204
061214
06121980
06121991
06122003
061256
061289
061291
061300
061302
06130613
06131963
06131967
06132557
061344fr
061362crg
061377
061387
061398
061402
061404mh
061406
061478
061502
06151985
06152002
06155
061577
061581
061597
061598bra
061599
061600
061602
061603
06164212
061684
061690
0616ads
0616mg
061759
06180618
06181983
061858
061868
061881
061888
061900
061902
061906
06191985
061957
061964
061969
061978
061980
061987
0619873211
061989
061994
061996
062006
062022
062060
062075
062077
062087ccr
062089
062095
0620kay
062103
062105
062115
06212003
062155
062180
062194
062196
062197
0621wash
062201
062205
062206
06221976
062283
062288ky
062296
06229845
0622guill
062304
06231950
062319780919
06231981
06232002
062353
062372
062392
062395
0624
062400
06242005
062462
062464
062484
062489
0624all1988
062500
062542ne
062573
062574
062576
062582
062599
0626
06261986
062681
06268282
062686
062688
062703
06271990
06272001
062727
062777
062784
062805bd
06281967
06281989
0628708
062872
062880
062882
062884
062900
062951
062960
062963
062969
062995
062996
062stix
0630
06301977
06301998
063055
063099
06366193
0638
063876166
06409856
0640bey
064260
064303185
064920
065118592
065131
065156
06530653
065395
065663
065668367
06590659
0660fern
066721352
0670932355
06710887
06712285
067809354
06798884
0680799
06831532
068565894
069000
069059
069267768
06940694
069654233
0696956
069979
06YZ124
06angels
06cooperS
06david07
06johreb
06oo90
06poop
06rubidoux
06sept
070010302278
070103
07010303
070160
070193
070196
070200781
070203
07021964
070280
070281
070301
070306
07030703
07031969
07031983
070372
070383
070386
070395
07040704
07041962
07041981
07041989
07042
070463
070505
070506
07051958
07051976
07051997
070573
070586mari
070598
0705cl
070600
07061980
070676
070683
070707
07071989
070754
070773
070779
070786
070797
070806
07081970
070856a
070869
070878
07091971
070960
07097178
070973
070986xsa
070992
070992jh
071003
071004
071007
07101982
071089
071091
071104
071106
07110711
07111977
071156
071184
071191mh
071199
0711camjon
071203nm
0712252473
071277
071279
071280
071282
071302
071305kw
07130713
07131015
07131947a
071367
071397
071398
071453
071458
071460
071460710
071471jkv
071479
0714790
071489
071502
071508
07151944
07152001
071557
071560_lel
071572
071575
071582anthonye
071603jp
071605
07161394
07161998
07162004
071682
071697
07169a54
071706
071707
07172526xsgt
07173450096
071773
071787
07181969
07182006
07182006littleron
07182250100
071868
071883
0719282
071966
071978
071985
071992
072053
072101
072106
0721106
0721233071
072154
072169
072175
072182
072185
0721861
072206
072225*
072281jmr
072305
07231978
072341
072355
072360
072382
072390
07240309
072404
072404ma
072406
07241953
072424
072431jc
07243326b678f
072478
072478am
072484
072487
072492nb
0724blue
0724flies
07250725
07251972
072550
0725543389
072572
072577
072587
072588
07260
072643
072655
072662
072679
072686kt
072689
072699da
0727434
072762
072765
072766
072769
072771
072773
072788
0727angel
07281983
07283677
072859
072872
072872cmh
072881
072885
072890
072896
072898
072905
07291169
07291712
072957
072974
072980
07299oem
073077
073088
073089
073092
073099
073153
073160
073174
073177
073180
073198
0732
073211
073422
073507192
074102
07506
0750pw
075582
07559188
075592
075681243
07570757
0758iamin
07630763w
0770
0773501
0773624365
07771795478
077787
07780778kmbr
07792532452
07801331490
07816081936
0781955
078290
07831535145
0786
078612447
078836
0788635712
079
0790
07914682f
07915230
0791Memo
0795558380
079856
07ALLOVE
07DA55c0nt3nt
07Dec1941
07binsever2007
07dalen
07enfamil
07lov74
07minime
07morgan
07najhar
07nitro
07olivsgran1
07p08a
07polo
07relli
07rts010289
07s10c02
07salsa
07shayboy
080102
080103
080105
08011992
080167
080170
080181
080191b
0801slou
080203
08021999
080254magic
080263
080282
080292
080296
0802wcao
08030581351
080308
08031959
08031972
08031983
08033291724
08033333399
080377
080390
080391rj
0803evolalob
080401
08040108jo
080403
080405
08041980
080448
080458
080469
080478
080485
0804baby
080500
080504
08051976
08051986
08052006
080579
080581
080585
080588
080592
080595
080603
08062006
080652
080681
080688
0806dh
0807
08071986
080773
080775
0807bell
0808
080801
080802
080808
08081975
08081980
08081984
080873
080888
080898
0808poedog
08091969
080980980980
080997
08102002
081055
081071
081083
081084
081103
08111988d
0811262936
081132
081151
081160mom
081181
081190
081199
081201
081204mk
08121998
081283
081284
081286
081288
081298
0813
08131986
081342
081380
081388
081394
0813an
081404a
08141708
081468
081476
081492
081493
081498
0815
081506
08151978
081540
081561
081567
081568
081571
0815sl
0816
08160
081605
081684
081696
08172003
081764
081765
0817hkm
081801
081803
081806
081806icg
081806kog
08181990
08182829
081829
081869
081875
081885
081910
081924
081954
081965
081983lori
081987
081989
0820007
08205494
082063
082076
082077
082084
082089d
082098
082101
082102
08210407
082106
08211999
08212288
082177
0821809808
082185
082199
0822
082222
082233
082258
082264
082299
082300
082303
08231958p
082351
08235947
082378
082389
082397
0823kim
08240818
08241028
082456
082470
082484nd
082496
082500
082511
08251961
082571
082575
082579
082584
082585
082586
0826031
08261974
082655
082661
082664
082671
082682
082689
082749
082783
08282004
082829
082869
082879
082901
082903jt
0829717194
082982
082987
082993
082998david
08301955
08301975
08301979
0830phil
08311976
083172
083196
083197
083197zeus
0831eamonhv
0835us
083640194
083pha446
084479
0846
0848jt
0852
085221
08527614799
0852drdr
085643841288
085888582
0863641179
086420
0868195568
0868843815
0868861285
087052
0870606088
0876081125
0877641424
0879064274
088373201
0887
0890
0891@inimeg
08930893
0895
089786
0899371031
089999
08Justin
08ago86
08and23
08aug291984
08december
08fallenbird
08future
08gogetta
08hummer
08istan08
08jan76
08jun01
08leazc
08m28l56h
08mattjr07
08may04
08mellon
08mpayne
08rinker
08rosserg
08ryte4Muni
08superstar
08troy08
08willowbox
08wm78742
08writes08
08zero08
0900
0901
09011986
09011989
09012001
09012005
090155
090169
090176
090181
090183
0901th
09021956
090219815377
09021993
090265great
090276
090284
090305
090311
090313
09032005
090371
090384
090385
090396
09046200762
0904630rh
090466
090472
090499
0904cb
090502
09051973
09052624699
0905925
090593
090599
090600
090645
090677
090702
09071977
09071982
09071991
09072006
090759
090795
090801
090802
090807
09081972
09081982
090831
090853
090870
09089393
0908tom
090903
090909/0621
09091010
09091955
09091975
090966
090972
090973
090987
090990
0909bcbc
091001
09101021
09101106
09101500
09101989
09101991
09103407461
09103668405
091042
091087
091099
0911
091101
09111970
09111999
09112001
09112003
09112005
091125
091151
091172
091195
091198
09121976
09121983
0912296120
091295
091302
091304
09131993
091357erm
091361
091367
091380
091385
0913rentme
091419
09141981
091456
091468
091487
091495
0914eze3
09150331
091504
091505
09151966
09153155095
09161976
09162141890
091655
091681
091695
091697
091704
0917183115
09171987
09171999
091749
091766
091770
091781
091782
091791
091797
0918
091802
091804
09183736685m
091856ca
091858
091871
091874
091882
091899
091919
09191986
091948
09196617879
091982
09198279521
09198425323
091991
091993
092002
09202005
092037
092053
092082
092084ab
092097
092098
092102
09210214
092105
09211985
0921321580
092159wallace
092172
092176
092179
092181
092184
092186
092187
092188
092191
0921kt
0922
09221959
09221983
092253
09227125902
09229233572
09229989624
0922renge
092373
092387
092391
092398
0924
092470
092495
0925
092501
092525
092662
092672
092678
092698
09272008
092760
092762
092786
09281985
09283cp17
09286557610
092871
092872
09287525819
092971
092973
092987
092989sara
092990
092gent
0930
09301995
093063
093066
093079
093blah
094635
095120183
095164146
0954
095610312
095leebz14
096971889
09718504
097610
0978catdog
09790
0979akiox
098321
098444829
098731daw
098765
09876543
0987654321
098765pop
0988.davis
0988654321
098915
098johnson
098poi
099161walden
09926haon
0995
099519823
099743676
09980a7b
09FrodO18
09allekl
09grzes
09mysiri02
0Diamond
0S494e14
0Z9o4McV
0a0p0p0l0e0z
0akhi11
0aktree
0apr72
0atmeal1
0banana4
0bitch0
0blacks
0blivion
0boyme2
0brendon1
0buga1xg
0butter
0c3l0t
0c408spani
0cashforbs0
0cean25ac
0chaplin
0ct0b3r
0cyclone9
0d3llr0x
0denkirk
0dh1nn
0dream
0facaf8d
0ff1c3r
0ff2baja
0fiddlestick
0gunner0
0gurrr
0hbu&amp;&amp;3r
0hellboy$
0heppylend
0hshit
0iilom
0iluvu247
0ishimamoni
0kcomputer
0kitties
0laf1979
0lateralus
0lav3rtsaas
0letmein
0lhzxt
0livest
0ll1ep1pz
0lolz0
0m!stars
0maine
0mar18
0mast3r0
0mcaura
0mfg1r0ck
0miles
0mischief
0moon0
0n8u7hjr
0nathen1
0ne2thr33
0noi8alison2
0ntab0cl
0ntari0
0o00oo
0o0o0o
0o9i8u7y6t
0oek1l
0oi#&amp;ast
0okm9ijn
0okmNJI(
0okmnji9
0olhadcjt8
0ooooo
0opytuo0
0p0p0p
0p3n13v311
0p3ns3sam3
0pen247
0penarms
0pensesame
0per6pingk
0ph3l1a32
0pnd00r
0pt1mus
0ptions$
0r3g0ncamp3r
0rat0
0rat01
0rat0123
0rchid
0rkawhales
0s0kboss
0sar1988
0sheanz
0speed10
0sports
0ssum12
0szajca
0thanatos0
0trisha
0tterp00ka
0u812karoline
0uthaus!
0w1owl
0yuckY77asdf00
0yucky77
0yurevan0
1
1!Good@77
1!secret
1#danielle
1$UP@STAR!03
1,2,3,4,..
1-22-1
1-hortlent-1
1-pony-23
1.50jk
1/lionheart
10-03-98
100%bitch
100%cotton
100%squires
1000
10000000
1000000ring
1000002954
100004ok
10000angels
10000week
100022
1000648
10006652
100089
1000arbor
1000dollars
1000hares
1001001sos
100102
100104
10011979
10011986
10012001
10012007
10012478n
100129
10014195
1001462650
100153
100164
100181
100185
100186
100190
100192
100198
1001ben
1001cajl
1002
100202
10021002
10021983
100263
100270
100273
100275
100279
100283
100292
1003029707
1003094
10033
10034
100350
100359
100360
100365
100384
100389
100392
100395m
1003nat
1003sauris
100402
100406
10041004
100417
100457
100465090c
100466
1004689
100499
1004faith
1004life
10050
100500
10051988
10052005
100525774
100545
100553
100583
100585
100600
100601
10060298
10060910
10061971
10061987
100642
100656
100674
100677
1006828
1006rlc
1007
10071970
10072002
10072004
10072006lns
100740
100750
100755
100757
10076599
100770
100783
100785
100787
10079396
100795
1007tc
1008
100804
10081966
1008407
100874
100878
100881
100884
100890
100894
100899
1008dinky
1008starwars
100905love
10091009
100913
10091964b
10091986
100953mp
100955
100957
100976
10097612
100980geo
100981
100997
100997162005jm
1009ac
100bigyellowfish
100days
100dreams
100grand
100joies1
100juice
100legs
100million
100nu200
100percent
100riley
100stars
100stopp
100woman
100years
100yearsofsolitude
1010
1010011010
10100429
101006
101010
1010101
1010101010
101011
10101971
10101972
10101979
10101982
10101983
10101985
10101987
10101996
10101ejl
10102005
1010240
1010297
101045
101045p
101048
101075
101077
101078
101081wj
101082
101087
101094
10109407
101095
101099
1010aoao
1010ds
1010jenny
1010kiss
1010lc
1010pmb38
1010wins
1010zz
1011
101100
101103
101104
101110
10111972
10111984
101137
101150joni
101151
101170
101185
101189
101193
1011wjrr
10120621
10121012
10121168
10121416
10121492
10121531
10121972
10121985
10121988
101241
101274
101280
101283
101285
101285e
101286
101291
101294
101295dj
101296
1012christian
1012gohlis
101304
10130835
101311ee
10131948
101327
101347
101357
101363
101371
101373
101385
101392
101396
1013peanut
1014
10141816
101419
10142000
101437
1014514
101457
101462
1014651
101481
101483
101486
101488d
101494
1014ofh
1014wed
101502
10151035
10151939
10151986
101553
101565
101569
101572zanda
101574
1015770
101579
101582
101588
101599
101610
10161124
10161948
101659slf
1016618tx
101677
101678
101690
1016oakst
101706
101706cy
101745
101764
101774
101778
1017811225
1018
101810
10181018
10181966
10182003
101860
101861
101862
101871
101876
101881t
101887
101892
1018del
101902
10191913
10191985
10192004
101961
101965
101967
101972smartass
101978o
101979
101982
101985
101992
10199765
101jay
101killer
101red
101tbell
101whippets
1020
10201020
10201969
10201999
102030
10203040
102036
102047w
1020514591
10206
102065
102078
102085cuse
102087
102088
102090
102096
1020987
1020rdml
1021
102100
102102
102104
10210727
10211021
10211945
10211974
10211978
10211978r
10211982
10211place
1021284
1021425
102147
102155
1021720
102182
102183
102189
102189qq
102192
102198
1021js
1021mb
1021sd
1022
102202
102204
102204lolo
10221009
10221022
10221972
10221973
10222005
102235
102243
102266
102268
102282
102284
10228635
102292
102293
102294
102295
102297
1022ut
1023
102302
102302kt
102305
10230501kap
102306monet
10231023
102323Tj
102328
102369
102378
102380
102381
102384
102385
102387
102388
1023bite
102405
1024050300
102405anp
102418
10241960
10241985
102428
102448
1024495635
102454maryas
102457
10245804
102469
102472
102479
102482eb
102484
102487
102494
1024jeenu32768
102501
10250e
10251982
10251998
102533
102548
102553
102578
102580
102582
1025sept231025
102602
10260211
10261206
102660
102668
102669
1026713
102676
102686
102695ga
1026blfd
1026jw
102703
10270417mia
102727
102768
102772
102780
102781
102782
102789
102790
102790kh
102791jr
102796
1027Writeforlife
1027alrp
1028
10281
102813
10281988
10281996
10282000
102829
102857
10285kln
102870
102872c
102876
102883
102884
102886
1028bipolar
1028bonzo
102900
10291973
10292006
102938
1029384756
1029384756trickster
10293900
102952gp
102961
102963
102971
102974
102977
1029am
1029cd
1029jrny
102agave
102front
102pdq
102ruthie
1030
103000
10302000
10302006
103040
103053
103066
1030666
103070
103076
103080
103088ag
103095
103099
103099adf
1030pleasant
1031
103104
103107
10311031
10311970
10312005
103166
103169
103182
103187
103189
103191
103193
103198
1031bc666
1031ps
1032002bc
1032357847
103300631
10331033
103382585
103398
1034
103426
103530
1035686
10359091107
103812
103850
1038jm
10391
1039omrikid
103helen
103pando
104060
104092
1040mjy
104104
1041127
104300
10460
10471047
10481199
104holic
1051
105105
105110
105162686
105171
1051940G
10538519
10540534
10542015
105515money
1055679
10573
105730080
1057tx
1057x1057
1058951kp
105963
105garrison
105treefern
105wesler
106012
10606m
1060jolene
1060love
1061923
1063fm
1064327
1064deb
1064eric
106608
106610
10661066
10661966
106669
10668888
1066ad
1066am9081
106700ac
10671
1067kroq
1067yank
106voiture
10701070
1070957
1071985
107208
1072393
107405
10741074
10743241
1074kateri
107507
107730posb
107fern
1080oxen
1080vp
1081044
10829kmb
10830588mel
108314
1083646
10837
108371
1084905
10855012
1086
1086kimi
1088
108821022897
108851
10896east
10901090
10903836
109109
109130780
109173
10921092
1094012880
10943mlc
109657
1096901
1097
10971097
1097310
109770cm
10987345
109885
109898
1098money
109grow7
109sei
10SecRule
10a14e
10a20a86
10acjed
10actual_5madeit
10annie24
10axes10
10baptist
10beansin1
10billion
10bronze29
10cjed
10ck513y
10deka10
10dfjxkvsx
10digits8
10dimes
10e22c01
10ellen774
10felo
10fluffy05
10green
10handa
10j480en
10jevoll
10jul06
10kidsgone
10kmonth
10krun
10littlemonkeys
10manny
10may82
10million
10nayonayo04
10nevaehk!!
10nov79
10nuy10
10oftens
10pablO55
10people
10phtqr4
10point
10pop10
10push10
10scjed
10sdulkar
10sfca22
10skings1
10sl07
10slukom
10sne1
10speed
10sylvia
10t25r
10teen10
10trefethen
10vejohn
10watermelons
10weasels
10writer
10xjup
10years
10zmal
11 11 93
11!!QQqq
11001100
11003315
110096
110099
1100io
1101.enter
110100
110103jt
110106
110109kmy
11011989
1101461
110164
110179
110180
110187
1101967
1101kirk
1101u1
1102
110202
11020507
110206
11021102
11021943
11021955
11021972
110238
110275
110284
110286
110299
1102fgm37
1102gar
1102ps
110300
110306
11031028
11031968
110346
110375
110380
110382
110384
110385mo
110386
110402
110405
110408
11041104
110425
110471
110472
110476
110478
1104jack
1104lbjbjb
1105
1105011
110505
110516
11051976
110554
110576
110580
110582
110587
1105925
110596622
110597
1105al
11060620
110607book
11061106
11061128gya
1106120
11061975
11061986g
110633
110673
110688
110689jk46
110691n
11071107
1107122
11071917
11071947
11071982
110747
110756
110766
110784
110785
110788
110794
1107lock603
1108
11080129
110803
110804
110804051306
11081999
110822
1108650407
110875
110876
110891
110898
1109
110901
110902
110907
11091977
11091982
11092002
110956
11095663
110958
110965
110969
110976
1109887
1109oooo
110jaisidewal
110kilo
110meriden
110weldon
111
111002
1110139
1110173
111072
111085krd
111090
111096
1110billy
1111
111101
111102
11111
111111
1111111
11111111
1111111111
11111111111111111111
111111111s
1111112
111111mw
111112
111116
111119
11111918
11111q
11112222
1111521
111156
111157
111158
111171
111178
111181
111187
11118888
111188factory
111199
1111ks
1111ssss
1112
111200
111201
111205
11121957
11121980
111222
111222333
111225rose
11123984
111266ac
111276
111277
111283
111285
111289
111294
1112concan
1112jessie
1112maru
111300
111301
111306
111309
111311
1113111
11131988
111333
111333777
111349
111355
111359
111363
111372
111378
111384
111397
111398
1113dup
1114
111401
11140126
11141970
111433
111445
111454
11147775
11147852369
111486
11151974
111555
111564
111565
111567
11158722KM
111597
111599ae
1115nl
1115word
11161976
111649
111673
111674
111680
111688
111691
111696
111699
1116ent
1117
111700
11171128
11171980
111754
1117575188
111777
111781
111783
111790
111798
111799
1117burr
111805
111809
11181967
11181982
111870
111875
111879
111895
111899
111900
111904
111907
11191814
11191967
111946
111953
111976
111977
111980
111981
111982
111987
111998
1119ab
1119mad
1119samuel
111BeLoVeD
111a222
111abbie
111bella
111boy
111chris
111eee
111k111
111lolo
111mmm
111q222q
111usmc
1120
112004sarah
112006
11201969
11201970
112025
112043
112057
112074
112076
112077
112084tl
112092
112097
112099
1120kaleb
1120krk249
1120lilu
1121
112101
112104sg
112106
11211
112111
112112
11211957
11212
11212001
112121
112130
112154
112161
1121680
112178jp
112181
112182
1121841
112188
112190
112192
112195
1121bitch
1121jtg
1122
112202
11220313
112204
11221
11221208
11221978
112223
112224
11222a
112233
1122333
11223344
1122334455
112244
11224455
112250DMW
112250dmw
112252
112254
112257
112264
112267
112270
112276
112278
112284
112286
112287m
112289
1122baba
1122meme
1123
112300
11231981
11231986
11231988
11233211
11234
112358
11235813
112358132
1123581321
11235813altare92
11235f
112378
112381
112386
112386pc
112387
112388
112391
112397
112398
1123cuta
1123hs
1123unicat
112412
112446
11245813
112462
11246342
112481
112486
112495
1124blue
1125
112500
11251211
112514
11251976
112530
1125403
112547
112549
112549ld
112554
112565
112575
112577
112581
112582
1125dean
1125lady
1125love
1125mdh
1126
112605
11261126
112613
11261963
11261971
112619830
11261984
11261986
112623
112656
112659
112664cp
112671
112677
112681
112683
1126it61
1126mary
1127
112702
112711
11271127
11271980
11272589
112754
112767
112768
112773
112779
112787
112793
112799d
1127mjc
1128
112800
11281128
11282004
112820bs
112832
1128359
112861
112868
112876
112877
112879
112881
112882
112888
112888fts
112891
112897
1128TDH
1129
112900mg
112904
112919
112962
112976
112979
112984
112984belle
112994
112hotti
112iowa
112mac
1130
113000
113001
113003
11301976jld
11301983
11301988
113048
11305918
113062
113067
113068
113070
113072
113073
113078sk
113083
113092
1130923
113096
11309a
1130bebop
1130jfsiii
1130nd
1131
11312362
113135
113168
113204
113273
1132798
113366
113408
11341134
1134523
11345999
113467
11354
11357103
113573870
113668386
11376wzachary
113774
1138ivanjs
113927
113taj
114.cats
11402277
11406
114197
114205217
11423
114311
114411
114452
114477
1144ace11
114569420
114625
114640
11470a
11471ls
11474529
1147daisy
1148263
114828bm
11485573
114bdc
11501043
115058
115089
1150cfm
1150hard
115177
1151955
115246
11551155
115527
1155458
115566
115574
115599
115634
1156reg
1157crew
115grizzly
115ok7y
116000
116100
1161860
1161mah
1162007
11624769
1162mf
1162thad
116300
11635s
1165
11652275
116611
116787129
1169
116900ph
116952
116sunny
1170911
1172viva
1173jsd2
1175mac
117631
117711
11777
117787
11780a
11781
117889
117999
117fbh8yt
1181
1181995
1181wycoff
1184
1185arbn
118663
1187
118erie
118redfish
11911512
1191185j
119122116
11913oats1
119191poo
1191942
1191979
1191999
119228
11924948
1193
1193422
1193745
1193dd
1193mmkc
1194
119411
11957771
1196
119603
119630lu
119695
119726719k
119728552
1199
11991
119922
1199771
11998877
1199ant
1199chase
119adams
119bulusan
119bwoodin
119mojo
11HarvesT
11J13A86A
11May1959
11SSirgp
11SickwhiP!
11a22b666
11a2884
11aa11aa
11ama
11b1pb4
11b1za1z
11blackspeed
11boston
11bravo
11carol26
11cats
11ck83
11colin19
11cu12sack86
11dec90
11dec99
11dublin
11dwings
11fory
11gh3456
11harman
11hw20
11jackass
11jdh11
11jpgrb
11kingdad
11kpio11
11leo13
11lovelove
11ma22ph
11marie85
11merlino11
11mwood
11oclock
11oct76
11oneisha
11parker
11roserdb
11sally11
11same29
11sandiego
11savana
11sexy11
11suri11
11suzlaz
11svetolik
11theunk
11tirips
11twoone
11tyseven
11v18a08g
11von54
11wed92
11yesod11
12
12$ejs
12(elena)2
12/17/87
12/31/1972
1200
120000
12000000
120025
120041713
1200hobos
120104jeff
12011201
120120
1201285816
120163
120172
12017730
120192
120197
120199
1201Hunt
1202
120203
120211
12021202
12021522
12022021k
120263md
120271
120275
120277
120280
120290
120294
120296xx
1203
120300
120303
12031309a
12031968
12031984
12031987
12032005
12035998
120366
120383
120384
12039949
120400
120401
120404
120406
12041948
120444
120446
120479ag
120480
120498
120503
120505755
120508
12051205
120512ejek
12051960
12051992
12052004
120548m
120549jb8
120551
120565
120579
120580
1205809714
120583
120585
120597
120598
1206
120601
120647
12064985
120662
120666vz
120675
120680
120685
120697
120698
1206rog
120706
12071979
120721
120741
120771
120780
120785
120789
120790
120796
120799
1207hr
120805
12081208
12081944
12081963
12082005
120868p
120871dc
120879
120880
120888
120888twnz
120889
12089877
1208buggs
1208lives
1208sasha
1209
12090106
1209122
12091933
12091971
12091976
12091988
12092002
120934
120950
120963
120979
120983
120985
120987
120999
1209Kirk
120darrell
120mms
121008
12101210
12101986
12102305
121070
121072
121077
121083
121089
12109133
1210yale
121100
121106
1211090
12111086
1211109
12111578
12111963
12112122
121160
121167
121176
121185kt
1211920914
121198
121199km
1211Melissa
1211se44
1211tatala
1212
121201rmlhjs3
121207
121210
121212
12121212
12121212l
1212123
121212chris
12121971
12121988
12121989
1212212
121222
121223holy1
121225
121234
12125523
121263
121266
121274
12127573
121278
121280
121281
121284
121284mr
121286
121288
121292
121298
1212Milko
1212NASTYBENA
1212terrace
1212zaqxsw
1213
121304
12130413
12131213
121314
12131951
12131986
12131987
121345
121364
121370
121371
121380
121399
1214
121403
12141121
12141214
12144
12145
121450
121457
121464
121469
121485
121486
121487liam
121489
121492339w
121494
121496
121497
1214jw
1214meador
12151215
12151970
121537
121554
121572
121577
121579
121587
121589SMC
1215tari
121600
12161964
12161987
121649
121662
121664
121692
121696
121698sc
1216gj
1216love
121700
121701
12170519
12171217
121712tina
12172004
1217244298
121763dec
121769
121779
121783
121787
1217cody
1217scud
1218
121806
1218081
12181218
121851
121852
121852277
121860
121869
121872
121879
121881
121883
121888cm
121890
121899
1218mg
1218pa
1218xx
1219
121905
121905j
12191977
121927
121944
121946beazer
121948
121956
121964ky
12196669
1219666naggi
121977
121979
121980
121982
121983
121989
121990
121998
121999
1219dove
1219mck
121ac11
121amj
121crashdumm
121evangel
1220
12200221
122003
12201220
12201976
12201979
122023308
122074
122078
122088
122096
1221
122103
122106
122108
12211216
122122
1221235
122146
122156
1221571450
122168
122170
122174
122181
122183
122189m
122198
122199
1221xena
122200
122204
12220420
122206
122206dc
12221978
12221RWilcox
122269
122275
122284
122289
122295
122298
1222dj
1223
122312
12231981
12231999
1223243
1223344556
122365
1223689
122375s
122378
122380
122385
122387
122389
122391
122392
122396
122398
1223jj
1224
122400
122401
122418
12242822
122437
122448
122454
122463tn
122474737
122481
122484ds
122490
122493
122493rc
122498
1224jjd
1224song
1225
122500
12250289
122505
122506
12251225
122523
122589
122598
1225luka
1225morton
12260920fllyf
12261982
1226198516
122645
1226479z
122662
122663
122668
122681
122689
122696ca
1226ke
122701mh
122704
122707
12271972
12275562
122766
122767
122770
122775
122781
122783
122787
122789
1227danelle
1227lorie
1227wagner
1228
122800
122801
122804
12281228
122824rc
122851
122852
12285556
122860
122864
122867
122875
122881
122882
122886
122887
122894
12289880aj
1228wshado
1229
12291967
12291982
122958
122967
122970
122973
122974
122980
122983
122994
1229fred
1229wed
122jbr
122moo
123
123!@#a
123#@!
123,knife
123-456
1230
12300
123001j
123003
123006
12300l
12301230
12301968
123022jel
123029te
1230456
123051
123054
123063
123077
123080
123080ed12
123086
123086sam
123093
123098
1230mae
1231
123105
12311231
12311961
123123
12312312
123123123
12312313
12312344
123123456456
123123a
123123c
123123ch
123123qweqwe
123123sdm
12312qw
123163
123165
123165sd
123182
123183
123196
123198
123199
1231992
1231trev
1232123
12321a
1232225
123255
1233
123300
123317
1233201
123321
12332112
123321aa
123321kea
12333
123378
1233moo
1234
1234$$raj
1234%&amp;/(andre
12340000
123412
12341234
12341324
12342428
1234321
1234321bbb
12344321
12344321a
12344322
1234456
12345
123451
1234512345
1234529
123454321
1234545
1234554321
123456
123456*
1234560
1234561
12345612
123456123456
123456212
1234566
12345666
1234567
12345678
12345678123
1234567889
123456789
1234567890
1234567890po
1234567891
12345678910
12345678910111213141
12345678911
123456789123456
123456789123456789
12345678912345678912
123456789987654321
123456789a
123456789b
123456789cg
123456789gate
123456789gra
123456789nir
12345678r
12345678tg
123456790
1234567a
1234567ed
1234567m
1234567p
123456ABc
123456BABA
123456Mm
123456a
123456aa
123456abc
123456asp
123456chinier
123456d
123456dsp
123456e
123456ec
123456edudon
123456g
123456h
123456jkn
123456k
123456love
123456m
123456mar
123456ok
123456poopoo
123456q
123456qq
123456qw
123456r
123456raptor
123456rei
123456rs
123456s
123456silvia
123456smb
123456t
123456trains
123456ty
123456vm
123456vs
123456we
123456xass
123456y
123456z
123456zx
123456zz
123457
12345@abcdef
12345TEG
12345_a
12345a
12345abc
12345abcde
12345as
12345cc
12345dhs
12345doug
12345imrahul
12345j
12345naji
12345qwert
12345r
12345rb
12345s
12345sao
12345t
12345tb
12345tjme
12346
123465
12347420
123485
12348765
1234F!v3
1234KIKI
1234QWER
1234REWQ
1234_a
1234aa
1234abcd
1234abcd!!
1234acassoci
1234asd
1234asdf
1234baby
1234bg
1234casss
1234cepl
1234e1234e
1234easy
1234fidelis
1234fuck1234fuck
1234heather
1234in
1234judo
1234ks
1234mcsd
1234me
1234oz
1234path
1234pino
1234pluskids
1234po
1234q.
1234qwer
1234qwerdfzx
1234rasta
1234rewq
1234rl
1234roekoe
1234rqew
1234sammy
1234sony1234
1234tova
1234u8tv
1234wayne
123505
1235060
12351235
123570
1235813
1236
1236485
123654
1236547
123654789
123654zha
12365872
123662
12369
1236987
12369874
12377950187954
123789
123789456
1237895
12379211a
1237sd63
1238
12384ljw
12399
123@@45
123DASANI
123Faye
123Goose
123Newby
123Old
123POZO
123QWASzx
123Qwert37
123Steler
123_abc
123abc
123abcde
123abcrr
123ac
123actor
123aditi+
123adonis
123algis
123aliceme
123alwaze
123aol
123ariel
123arsenal
123article
123arun123
123asa
123asd
123asd4u
123ashes
123askask
123ballet
123beha456
123bl1ng
123blacklagoon
123blahg
123blatny
123blonde
123bowie
123brave
123buns
123c4d
123caleb123
123cam456
123capote
123cat
123cc321
123chunming
123clack
123cooperace
123csl123
123cute
123dancewith
123deal
123delta
123diamond
123doctor
123done
123edc
123eliseo
123erw123
123eveve
123fjdk
123four5
123gange
123goboy
123gooding
123grandpaa
123green
123grunt
123harmony4m
123harry
123hey
123hilde
123howitzer
123iluvrs2
123indigo
123islands
123jane
123jasper123
123jesse
123jjjaz
123kamaljeet
123kayline
123kid
123kids
123kim
123lawn
123let123
123life
123liz
123love
123loveJames
123lqn
123m321
123mamiki
123mckenna
123money
123moses
123mudar
123my3
123mysha
123nak789
123nani
123nea
123netta
123nic
123nova
123nude
123ok2!
123partez
123pass
123phan
123planet
123powerbomb
123precious
123princess123
123publish
123puntagord
123pup
123qwe
123qwe4r
123qweas
123qweasd
123qweasz
123qwp
123redred
123reek
123robinz
123roche
123roger
123sally
123scoopy
123seanpc
123sexy
123sha456
123shame-o123
123shot
123sinkfish666
123skin
123stare
123steve
123stupid123
123subramanya
123successful123
123sukhwal
123sunny
123surf
123tee
123testist123
123tgs
123tomik
123tool
123victor
123warrior
123weakstuff
123wer456
123what
123win
123x123
123xxx
123xyz
123zab
123zaulek
123zxabc11
123zxc
123zzz
124057
124124
1241989
124289363
1242media
12431243
1243apr!50108
1243xxx
1244412h
1245
1245142
124555
1245689o
12457836987
1245ann
1245sf
12460m
124653
12481632
12481632beth
12487abd
124912
124917
124c41
125099
12511251
1251987
125200
125353
1254
125416
125422
12544
125544
12561256
125634
125678qwer
125698
125773res
125800
125843
125941
1259ca
125atb9
125ewr
125near
125osage
125prince
126060
12607
12613409
1261974
1261992
1264
126563262
126636
126683
126700
126800
126912
126977gg
126ace837
1270083
127046
12710127
1271marion
1272727
127310
127355
127398
127426
127600
127611aa
1276219rzp
12777
12785kLoT
127863
127888
128002
12807334
128080
1280jsm
12811111
128137
12816960
1281971
1281977
1281981
1281988
1281est3
128231974
128241
128446
1284yr36
128512
12854303
1286
128645
128717
1287baba
1288700
128988
128bob
1290zxnm
1291986
1291mamama
1292
1295lj
129600
12963
129639
1296dcshoes
12972499
1297644
12978
1297kri$hna
12981298
12989e
129azgtanen
129jak
12@v40pv
12FREDDY4U
12Juni81
12Marcusand
12QWASzx
12Stockton
12Tuxedo
12_11_91
12a34s
12ab34cd
12ac34
12adrock12
12ajm78
12and12
12apple30
12aqjqap
12ass4
12associated
12ath34
12b69a
12barblues
12beauty
12benti78
12bernie12
12bhappy
12brett28
12bri802616
12cady34
12camden
12car34draw
12carla20
12chachacha
12chair3
12chicks
12cwqdmB
12december
12delaney
12dozenn
12eastrivers
12edu254
12feb2003
12fina20
12fishermen
12fith83
12forlife
12ftdavis
12g@uge
12gables
12gage
12gages
12garage
12gauge
12gennaio
12goody
12gtshtdn
12harvest
12hp4alex17
12iloveyou
12ionr4
12is3med
12january
12jazz
12jj12jj
12jln2a4d
12joebet
12jyc34
12ka4by6
12katewill
12kids
12km76
12knight
12legion
12lincoln
12liveby
12long
12louter
12love
12many
12mawar
12mdam01
12meechy
12midnight
12milnow
12milo
12monkeys
12mother1953
12mountain
12mozart
12nacy
12nayners
12nina
12nizuts
12nst5
12oclock
12of2k7
12open
12pack
12pain
12paju
12parrots
12pass12
12pat5
12peters
12phyllis
12qazx
12qw3e4r
12qwas
12qwaszx
12qwe12
12qweasd
12rocky3
12roses
12rule
12self
12shae13
12shannon34
12shilo12
12shoe34
12sl0c0mb3
12snooks34
12spruce
12ste456ph
12stepper
12stones
12strikes
12string
12sweetcheeks
12tennismaster
12thirty7
12three
12toz21
12tribes
12watler34
12write
12x34x
12xcw6jp
12zebras
130000
130012
1300211v
1300pez
1301998345
1301dmm
130204
13022
1302ofr
13030h
13032002
1304
130405justin
130476
130490
1304ac!
13051975
13061982
130687
13068mm
1306979
130824
130891
1308914
1308is
1309
130903
130987
130988
130990
130door
131
131000
1310012
13101974
13101986
13105423
131061
131079
1310gardena
131152
131188
1312000
1313
131313
13131313
131322
131358
1313help
1313mock
1313pepe
1313q
1313texas
1314
131415
1314nj
13151719
131588
1316
131618
131619
131622
131654
131713
13171317
1317bk
1318
131816
13191
131954
131962
131969
131979
131981010516
131986
131990
1319Jac6944
131aelr
13201320
132103
13211123
132132
13221721
1322westfifth
1323
132398
132435
13245768
13247634
1324781mma
1324dsta
132511
132527
132585
1325tsoul
13261326
132654
132672yhvh
132722
132789
1327tk
13299023
132ggn00b
1330
13311331
133131
133133
1331hh
1331n41
1331ozzie
1331rk
1332976
13335141
133400
1334321
133505
133539
13362804
13363613
1336market
1337
1337h4xor
1337haXX0r
133816
133936
133999
1339lss
13409914
1340c5505
1340dude
1341
1342/70
1342825
1344matt
13459
134679
134679852
134689
134695
13479
1347ab
1348
13481112
13487_powhat
13488888
1349660
13496hwy210
134gbz
1351